# B_up (mT)	 U_up (V)
-599.9600	0.2104	0.1976
-594.9676	0.1994	0.1980
-590.0110	0.1999	0.1981
-585.0048	0.2003	0.1995
-580.0792	0.2004	0.1998
-575.0386	0.2007	0.1999
-570.0542	0.2015	0.2002
-565.0082	0.2022	0.2010
-560.0576	0.2024	0.2005
-555.0638	0.2029	0.2011
-549.9424	0.2037	0.2016
-544.9612	0.2040	0.2024
-539.9436	0.2042	0.2026
-535.0710	0.2050	0.2030
-530.0030	0.2046	0.2035
-525.0824	0.2063	0.2045
-519.9692	0.2062	0.2049
-514.9634	0.2064	0.2043
-509.9444	0.2075	0.2046
-505.0668	0.2072	0.2056
-499.9818	0.2079	0.2064
-495.0470	0.2079	0.2067
-489.9104	0.2078	0.2074
-484.9496	0.2090	0.2085
-479.9692	0.2098	0.2086
-474.9720	0.2101	0.2090
-469.9460	0.2107	0.2093
-465.0960	0.2107	0.2099
-460.0656	0.2112	0.2095
-455.0424	0.2117	0.2112
-449.9964	0.2121	0.2108
-444.9420	0.2129	0.2111
-440.0700	0.2124	0.2114
-435.0000	0.2138	0.2122
-429.9520	0.2141	0.2125
-424.9080	0.2144	0.2139
-420.0258	0.2144	0.2141
-414.9454	0.2149	0.2135
-410.0460	0.2155	0.2141
-404.9500	0.2162	0.2152
-400.0450	0.2165	0.2160
-394.9440	0.2171	0.2166
-390.0440	0.2177	0.2164
-384.9436	0.2179	0.2173
-379.9886	0.2183	0.2171
-375.0308	0.2181	0.2177
-370.0408	0.2189	0.2177
-365.0544	0.2189	0.2171
-359.9116	0.2197	0.2176
-354.9636	0.2201	0.2179
-349.9936	0.2202	0.2193
-345.0224	0.2206	0.2180
-340.0424	0.2210	0.2188
-335.0648	0.2217	0.2194
-329.9064	0.2220	0.2207
-324.9432	0.2218	0.2209
-319.9632	0.2222	0.2216
-314.9800	0.2228	0.2216
-309.9800	0.2235	0.2214
-304.9832	0.2231	0.2223
-300.0032	0.2246	0.2213
-295.0240	0.2248	0.2229
-290.0490	0.2246	0.2230
-285.0636	0.2240	0.2230
-280.0236	0.2241	0.2244
-274.9900	0.2249	0.2240
-269.9900	0.2251	0.2238
-264.9940	0.2254	0.2246
-260.0190	0.2256	0.2249
-255.0360	0.2259	0.2247
-250.0110	0.2260	0.2242
-244.9852	0.2258	0.2252
-239.9552	0.2265	0.2247
-234.9236	0.2262	0.2258
-230.0852	0.2267	0.2256
-225.0482	0.2270	0.2262
-220.0332	0.2270	0.2268
-215.0158	0.2274	0.2250
-209.9808	0.2269	0.2254
-204.9464	0.2265	0.2249
-199.9164	0.2263	0.2250
-195.0892	0.2262	0.2251
-190.0792	0.2263	0.2255
-185.0668	0.2264	0.2253
-180.0268	0.2254	0.2242
-174.9856	0.2258	0.2237
-169.9306	0.2252	0.2234
-165.0802	0.2241	0.2229
-160.0852	0.2245	0.2228
-155.0884	0.2237	0.2217
-150.0484	0.2225	0.2211
-145.0086	0.2213	0.2208
-139.9736	0.2204	0.2192
-134.9382	0.2190	0.2181
-130.0950	0.2173	0.2167
-125.0500	0.2159	0.2148
-120.0350	0.2136	0.2116
-115.0200	0.2098	0.2092
-109.9350	0.2064	0.2065
-105.0534	0.2024	0.2024
-99.9348	0.1975	0.1968
-95.0196	0.1909	0.1911
-89.9686	0.1843	0.1838
-84.9236	0.1780	0.1782
-80.0584	0.1699	0.1697
-74.9884	0.1613	0.1620
-69.9272	0.1525	0.1527
-65.0696	0.1435	0.1440
-60.0264	0.1344	0.1334
-54.9864	0.1241	0.1239
-49.9338	0.1145	0.1140
-45.0810	0.1040	0.1042
-40.0180	0.0933	0.0934
-34.9530	0.0837	0.0842
-30.0944	0.0723	0.0732
-25.0344	0.0622	0.0614
-20.0010	0.0511	0.0502
-14.9760	0.0394	0.0400
-9.9244	0.0284	0.0278
-5.0668	0.0167	0.0167
0.0148	0.0058	0.0052
4.9012	-0.0050	-0.0069
9.9300	-0.0174	-0.0180
14.9300	-0.0291	-0.0309
19.9742	-0.0410	-0.0417
25.0392	-0.0527	-0.0529
29.9080	-0.0637	-0.0642
34.9830	-0.0762	-0.0765
40.0388	-0.0889	-0.0892
45.0838	-0.1005	-0.1009
49.9450	-0.1126	-0.1131
55.0200	-0.1253	-0.1246
59.9004	-0.1363	-0.1351
64.9904	-0.1481	-0.1480
70.0692	-0.1597	-0.1602
74.9364	-0.1708	-0.1708
79.9908	-0.1820	-0.1827
85.0308	-0.1934	-0.1934
90.0864	-0.2041	-0.2042
94.9536	-0.2143	-0.2141
100.0140	-0.2246	-0.2244
105.0640	-0.2349	-0.2343
110.0948	-0.2449	-0.2436
114.9044	-0.2529	-0.2528
119.9364	-0.2611	-0.2601
124.9964	-0.2685	-0.2667
130.0608	-0.2746	-0.2729
134.9280	-0.2791	-0.2793
139.9840	-0.2833	-0.2831
145.0190	-0.2870	-0.2859
150.0720	-0.2894	-0.2884
154.9488	-0.2913	-0.2897
160.0198	-0.2934	-0.2923
165.0748	-0.2955	-0.2937
169.9372	-0.2966	-0.2939
175.0222	-0.2977	-0.2950
180.0896	-0.2980	-0.2969
184.9184	-0.2994	-0.2965
189.9610	-0.3001	-0.2974
195.0360	-0.3000	-0.2985
199.9044	-0.3010	-0.2981
204.9644	-0.3010	-0.2994
210.0112	-0.3012	-0.2993
215.0162	-0.3015	-0.2998
220.0272	-0.3017	-0.2994
225.0572	-0.3017	-0.3005
230.0848	-0.3022	-0.3005
234.9040	-0.3022	-0.3002
239.9250	-0.3026	-0.3007
244.9500	-0.3022	-0.3006
249.9770	-0.3022	-0.3002
255.0120	-0.3019	-0.3002
260.0450	-0.3019	-0.3010
265.0700	-0.3019	-0.3002
270.0990	-0.3014	-0.3014
274.9422	-0.3012	-0.3002
279.9872	-0.3013	-0.2997
285.0322	-0.3005	-0.2993
290.0748	-0.3008	-0.2987
294.9036	-0.3006	-0.2986
299.9324	-0.3003	-0.2976
304.9524	-0.3003	-0.2990
309.9706	-0.3000	-0.2977
314.9756	-0.2990	-0.2984
319.9806	-0.2991	-0.2979
324.9856	-0.2986	-0.2975
329.9894	-0.2987	-0.2977
334.9844	-0.2981	-0.2964
339.9788	-0.2979	-0.2968
344.9688	-0.2979	-0.2962
349.9504	-0.2972	-0.2958
355.0672	-0.2970	-0.2953
359.9928	-0.2963	-0.2945
364.9478	-0.2958	-0.2947
369.9036	-0.2953	-0.2935
375.0620	-0.2947	-0.2929
380.0190	-0.2950	-0.2934
384.9640	-0.2946	-0.2927
389.9080	-0.2941	-0.2920
395.0456	-0.2939	-0.2919
399.9868	-0.2936	-0.2915
404.9318	-0.2926	-0.2912
410.0704	-0.2922	-0.2905
415.0004	-0.2919	-0.2904
419.9248	-0.2917	-0.2904
425.0312	-0.2913	-0.2899
429.9460	-0.2907	-0.2890
435.0680	-0.2901	-0.2880
439.9840	-0.2900	-0.2879
445.0800	-0.2893	-0.2866
449.9680	-0.2896	-0.2868
455.0328	-0.2888	-0.2866
459.9072	-0.2887	-0.2859
464.9824	-0.2877	-0.2854
470.0498	-0.2873	-0.2845
474.9148	-0.2866	-0.2849
479.9296	-0.2862	-0.2847
484.9060	-0.2856	-0.2845
490.0636	-0.2856	-0.2841
495.0244	-0.2848	-0.2824
499.9852	-0.2846	-0.2825
504.9460	-0.2844	-0.2818
510.0712	-0.2837	-0.2827
515.0008	-0.2833	-0.2809
520.0750	-0.2824	-0.2805
524.9576	-0.2828	-0.2797
530.0228	-0.2812	-0.2797
535.0740	-0.2807	-0.2791
540.0636	-0.2805	-0.2785
545.0280	-0.2805	-0.2779
549.9420	-0.2796	-0.2768
555.0128	-0.2795	-0.2771
560.0584	-0.2790	-0.2761
565.0280	-0.2783	-0.2758
569.9672	-0.2772	-0.2759
574.9154	-0.2769	-0.2755
579.9696	-0.2766	-0.2752
585.0164	-0.2758	-0.2741
589.9378	-0.2756	-0.2737
594.9272	-0.2749	-0.2738
599.9320	-0.2742	-0.2734
